Created as New Dataset,Sample 012 By Analyst Date Wednesday, January 20 2016
cm-1,A
4000.00,0.0066
3999.00,0.0066
3998.00,0.0066
3997.00,0.0067
3996.00,0.0067
3995.00,0.0067
3994.00,0.0067
3993.00,0.0067
3992.00,0.0067
3991.00,0.0066
3990.00,0.0066
3989.00,0.0066
3988.00,0.0066
3987.00,0.0066
3986.00,0.0067
3985.00,0.0066
3984.00,0.0066
3983.00,0.0066
3982.00,0.0066
3981.00,0.0066
3980.00,0.0066
3979.00,0.0067
3978.00,0.0066
3977.00,0.0066
3976.00,0.0066
3975.00,0.0066
3974.00,0.0066
3973.00,0.0066
3972.00,0.0066
3971.00,0.0066
3970.00,0.0066
3969.00,0.0066
3968.00,0.0066
3967.00,0.0066
3966.00,0.0066
3965.00,0.0066
3964.00,0.0066
3963.00,0.0066
3962.00,0.0066
3961.00,0.0066
3960.00,0.0066
3959.00,0.0066
3958.00,0.0066
3957.00,0.0066
3956.00,0.0066
3955.00,0.0066
3954.00,0.0066
3953.00,0.0066
3952.00,0.0066
3951.00,0.0066
3950.00,0.0066
3949.00,0.0066
3948.00,0.0065
3947.00,0.0066
3946.00,0.0066
3945.00,0.0066
3944.00,0.0067
3943.00,0.0066
3942.00,0.0066
3941.00,0.0066
3940.00,0.0066
3939.00,0.0065
3938.00,0.0065
3937.00,0.0065
3936.00,0.0065
3935.00,0.0065
3934.00,0.0065
3933.00,0.0065
3932.00,0.0065
3931.00,0.0066
3930.00,0.0066
3929.00,0.0066
3928.00,0.0066
3927.00,0.0066
3926.00,0.0066
3925.00,0.0066
3924.00,0.0066
3923.00,0.0066
3922.00,0.0066
3921.00,0.0065
3920.00,0.0065
3919.00,0.0065
3918.00,0.0065
3917.00,0.0065
3916.00,0.0065
3915.00,0.0065
3914.00,0.0066
3913.00,0.0066
3912.00,0.0065
3911.00,0.0065
3910.00,0.0065
3909.00,0.0065
3908.00,0.0065
3907.00,0.0065
3906.00,0.0065
3905.00,0.0065
3904.00,0.0064
3903.00,0.0064
3902.00,0.0065
3901.00,0.0065
3900.00,0.0066
3899.00,0.0065
3898.00,0.0065
3897.00,0.0065
3896.00,0.0065
3895.00,0.0065
3894.00,0.0065
3893.00,0.0064
3892.00,0.0064
3891.00,0.0064
3890.00,0.0064
3889.00,0.0064
3888.00,0.0065
3887.00,0.0065
3886.00,0.0065
3885.00,0.0064
3884.00,0.0065
3883.00,0.0066
3882.00,0.0067
3881.00,0.0067
3880.00,0.0066
3879.00,0.0065
3878.00,0.0065
3877.00,0.0066
3876.00,0.0066
3875.00,0.0066
3874.00,0.0065
3873.00,0.0065
3872.00,0.0065
3871.00,0.0065
3870.00,0.0064
3869.00,0.0064
3868.00,0.0064
3867.00,0.0064
3866.00,0.0064
3865.00,0.0064
3864.00,0.0063
3863.00,0.0063
3862.00,0.0064
3861.00,0.0064
3860.00,0.0063
3859.00,0.0063
3858.00,0.0063
3857.00,0.0063
3856.00,0.0063
3855.00,0.0064
3854.00,0.0063
3853.00,0.0063
3852.00,0.0063
3851.00,0.0064
3850.00,0.0064
3849.00,0.0064
3848.00,0.0064
3847.00,0.0063
3846.00,0.0063
3845.00,0.0064
3844.00,0.0064
3843.00,0.0063
3842.00,0.0063
3841.00,0.0063
3840.00,0.0063
3839.00,0.0064
3838.00,0.0064
3837.00,0.0064
3836.00,0.0064
3835.00,0.0064
3834.00,0.0064
3833.00,0.0064
3832.00,0.0064
3831.00,0.0064
3830.00,0.0063
3829.00,0.0064
3828.00,0.0064
3827.00,0.0063
3826.00,0.0063
3825.00,0.0062
3824.00,0.0062
3823.00,0.0063
3822.00,0.0063
3821.00,0.0062
3820.00,0.0062
3819.00,0.0063
3818.00,0.0064
3817.00,0.0064
3816.00,0.0064
3815.00,0.0063
3814.00,0.0063
3813.00,0.0064
3812.00,0.0063
3811.00,0.0063
3810.00,0.0063
3809.00,0.0063
3808.00,0.0063
3807.00,0.0062
3806.00,0.0062
3805.00,0.0063
3804.00,0.0064
3803.00,0.0064
3802.00,0.0064
3801.00,0.0063
3800.00,0.0063
3799.00,0.0064
3798.00,0.0064
3797.00,0.0064
3796.00,0.0063
3795.00,0.0063
3794.00,0.0063
3793.00,0.0064
3792.00,0.0064
3791.00,0.0064
3790.00,0.0064
3789.00,0.0064
3788.00,0.0064
3787.00,0.0064
3786.00,0.0064
3785.00,0.0064
3784.00,0.0064
3783.00,0.0064
3782.00,0.0064
3781.00,0.0064
3780.00,0.0064
3779.00,0.0064
3778.00,0.0063
3777.00,0.0064
3776.00,0.0064
3775.00,0.0064
3774.00,0.0063
3773.00,0.0063
3772.00,0.0063
3771.00,0.0063
3770.00,0.0063
3769.00,0.0063
3768.00,0.0063
3767.00,0.0064
3766.00,0.0064
3765.00,0.0063
3764.00,0.0063
3763.00,0.0063
3762.00,0.0064
3761.00,0.0064
3760.00,0.0064
3759.00,0.0063
3758.00,0.0063
3757.00,0.0063
3756.00,0.0063
3755.00,0.0062
3754.00,0.0062
3753.00,0.0061
3752.00,0.0060
3751.00,0.0060
3750.00,0.0060
3749.00,0.0061
3748.00,0.0061
3747.00,0.0062
3746.00,0.0063
3745.00,0.0063
3744.00,0.0063
3743.00,0.0062
3742.00,0.0063
3741.00,0.0063
3740.00,0.0062
3739.00,0.0062
3738.00,0.0062
3737.00,0.0062
3736.00,0.0061
3735.00,0.0061
3734.00,0.0061
3733.00,0.0062
3732.00,0.0062
3731.00,0.0062
3730.00,0.0062
3729.00,0.0062
3728.00,0.0062
3727.00,0.0062
3726.00,0.0062
3725.00,0.0063
3724.00,0.0063
3723.00,0.0064
3722.00,0.0064
3721.00,0.0064
3720.00,0.0064
3719.00,0.0064
3718.00,0.0064
3717.00,0.0064
3716.00,0.0064
3715.00,0.0064
3714.00,0.0064
3713.00,0.0064
3712.00,0.0063
3711.00,0.0064
3710.00,0.0064
3709.00,0.0065
3708.00,0.0065
3707.00,0.0065
3706.00,0.0065
3705.00,0.0066
3704.00,0.0066
3703.00,0.0067
3702.00,0.0067
3701.00,0.0067
3700.00,0.0067
3699.00,0.0067
3698.00,0.0068
3697.00,0.0068
3696.00,0.0068
3695.00,0.0068
3694.00,0.0068
3693.00,0.0069
3692.00,0.0069
3691.00,0.0069
3690.00,0.0070
3689.00,0.0070
3688.00,0.0071
3687.00,0.0071
3686.00,0.0072
3685.00,0.0072
3684.00,0.0072
3683.00,0.0072
3682.00,0.0073
3681.00,0.0073
3680.00,0.0074
3679.00,0.0075
3678.00,0.0076
3677.00,0.0077
3676.00,0.0078
3675.00,0.0077
3674.00,0.0077
3673.00,0.0078
3672.00,0.0079
3671.00,0.0079
3670.00,0.0078
3669.00,0.0079
3668.00,0.0079
3667.00,0.0080
3666.00,0.0080
3665.00,0.0081
3664.00,0.0081
3663.00,0.0082
3662.00,0.0082
3661.00,0.0082
3660.00,0.0082
3659.00,0.0082
3658.00,0.0082
3657.00,0.0083
3656.00,0.0083
3655.00,0.0083
3654.00,0.0084
3653.00,0.0085
3652.00,0.0086
3651.00,0.0085
3650.00,0.0085
3649.00,0.0086
3648.00,0.0088
3647.00,0.0089
3646.00,0.0089
3645.00,0.0090
3644.00,0.0090
3643.00,0.0090
3642.00,0.0090
3641.00,0.0090
3640.00,0.0091
3639.00,0.0091
3638.00,0.0091
3637.00,0.0092
3636.00,0.0092
3635.00,0.0092
3634.00,0.0092
3633.00,0.0092
3632.00,0.0092
3631.00,0.0093
3630.00,0.0094
3629.00,0.0094
3628.00,0.0095
3627.00,0.0096
3626.00,0.0097
3625.00,0.0098
3624.00,0.0098
3623.00,0.0099
3622.00,0.0100
3621.00,0.0101
3620.00,0.0103
3619.00,0.0103
3618.00,0.0104
3617.00,0.0105
3616.00,0.0106
3615.00,0.0106
3614.00,0.0107
3613.00,0.0107
3612.00,0.0108
3611.00,0.0108
3610.00,0.0110
3609.00,0.0111
3608.00,0.0113
3607.00,0.0115
3606.00,0.0116
3605.00,0.0117
3604.00,0.0118
3603.00,0.0119
3602.00,0.0120
3601.00,0.0121
3600.00,0.0122
3599.00,0.0124
3598.00,0.0125
3597.00,0.0126
3596.00,0.0128
3595.00,0.0129
3594.00,0.0130
3593.00,0.0130
3592.00,0.0131
3591.00,0.0132
3590.00,0.0133
3589.00,0.0135
3588.00,0.0136
3587.00,0.0138
3586.00,0.0139
3585.00,0.0139
3584.00,0.0140
3583.00,0.0140
3582.00,0.0141
3581.00,0.0142
3580.00,0.0143
3579.00,0.0144
3578.00,0.0144
3577.00,0.0145
3576.00,0.0146
3575.00,0.0147
3574.00,0.0147
3573.00,0.0148
3572.00,0.0149
3571.00,0.0149
3570.00,0.0151
3569.00,0.0152
3568.00,0.0153
3567.00,0.0154
3566.00,0.0155
3565.00,0.0155
3564.00,0.0156
3563.00,0.0156
3562.00,0.0156
3561.00,0.0157
3560.00,0.0157
3559.00,0.0158
3558.00,0.0158
3557.00,0.0159
3556.00,0.0160
3555.00,0.0161
3554.00,0.0162
3553.00,0.0163
3552.00,0.0164
3551.00,0.0164
3550.00,0.0165
3549.00,0.0166
3548.00,0.0166
3547.00,0.0167
3546.00,0.0168
3545.00,0.0169
3544.00,0.0170
3543.00,0.0171
3542.00,0.0172
3541.00,0.0173
3540.00,0.0173
3539.00,0.0174
3538.00,0.0175
3537.00,0.0176
3536.00,0.0177
3535.00,0.0178
3534.00,0.0179
3533.00,0.0180
3532.00,0.0181
3531.00,0.0181
3530.00,0.0182
3529.00,0.0183
3528.00,0.0184
3527.00,0.0185
3526.00,0.0186
3525.00,0.0187
3524.00,0.0189
3523.00,0.0190
3522.00,0.0191
3521.00,0.0192
3520.00,0.0193
3519.00,0.0194
3518.00,0.0196
3517.00,0.0197
3516.00,0.0198
3515.00,0.0199
3514.00,0.0200
3513.00,0.0201
3512.00,0.0202
3511.00,0.0204
3510.00,0.0205
3509.00,0.0207
3508.00,0.0208
3507.00,0.0209
3506.00,0.0210
3505.00,0.0212
3504.00,0.0213
3503.00,0.0214
3502.00,0.0216
3501.00,0.0217
3500.00,0.0219
3499.00,0.0220
3498.00,0.0221
3497.00,0.0223
3496.00,0.0224
3495.00,0.0225
3494.00,0.0227
3493.00,0.0228
3492.00,0.0229
3491.00,0.0231
3490.00,0.0232
3489.00,0.0233
3488.00,0.0235
3487.00,0.0236
3486.00,0.0238
3485.00,0.0239
3484.00,0.0240
3483.00,0.0242
3482.00,0.0243
3481.00,0.0245
3480.00,0.0246
3479.00,0.0248
3478.00,0.0249
3477.00,0.0250
3476.00,0.0252
3475.00,0.0253
3474.00,0.0255
3473.00,0.0256
3472.00,0.0257
3471.00,0.0259
3470.00,0.0260
3469.00,0.0261
3468.00,0.0262
3467.00,0.0264
3466.00,0.0265
3465.00,0.0266
3464.00,0.0268
3463.00,0.0269
3462.00,0.0270
3461.00,0.0272
3460.00,0.0273
3459.00,0.0274
3458.00,0.0275
3457.00,0.0277
3456.00,0.0278
3455.00,0.0279
3454.00,0.0280
3453.00,0.0281
3452.00,0.0282
3451.00,0.0284
3450.00,0.0285
3449.00,0.0286
3448.00,0.0287
3447.00,0.0288
3446.00,0.0289
3445.00,0.0290
3444.00,0.0291
3443.00,0.0293
3442.00,0.0294
3441.00,0.0295
3440.00,0.0296
3439.00,0.0297
3438.00,0.0298
3437.00,0.0299
3436.00,0.0299
3435.00,0.0300
3434.00,0.0301
3433.00,0.0302
3432.00,0.0303
3431.00,0.0304
3430.00,0.0305
3429.00,0.0305
3428.00,0.0306
3427.00,0.0307
3426.00,0.0307
3425.00,0.0308
3424.00,0.0309
3423.00,0.0310
3422.00,0.0311
3421.00,0.0311
3420.00,0.0312
3419.00,0.0313
3418.00,0.0313
3417.00,0.0314
3416.00,0.0314
3415.00,0.0315
3414.00,0.0315
3413.00,0.0316
3412.00,0.0317
3411.00,0.0317
3410.00,0.0318
3409.00,0.0318
3408.00,0.0319
3407.00,0.0319
3406.00,0.0320
3405.00,0.0321
3404.00,0.0321
3403.00,0.0322
3402.00,0.0322
3401.00,0.0322
3400.00,0.0323
3399.00,0.0323
3398.00,0.0324
3397.00,0.0324
3396.00,0.0324
3395.00,0.0325
3394.00,0.0325
3393.00,0.0326
3392.00,0.0327
3391.00,0.0327
3390.00,0.0328
3389.00,0.0328
3388.00,0.0329
3387.00,0.0329
3386.00,0.0330
3385.00,0.0330
3384.00,0.0331
3383.00,0.0332
3382.00,0.0332
3381.00,0.0333
3380.00,0.0333
3379.00,0.0334
3378.00,0.0334
3377.00,0.0335
3376.00,0.0335
3375.00,0.0336
3374.00,0.0336
3373.00,0.0337
3372.00,0.0337
3371.00,0.0338
3370.00,0.0338
3369.00,0.0339
3368.00,0.0339
3367.00,0.0340
3366.00,0.0340
3365.00,0.0340
3364.00,0.0341
3363.00,0.0341
3362.00,0.0341
3361.00,0.0341
3360.00,0.0341
3359.00,0.0341
3358.00,0.0340
3357.00,0.0340
3356.00,0.0340
3355.00,0.0340
3354.00,0.0340
3353.00,0.0339
3352.00,0.0339
3351.00,0.0339
3350.00,0.0338
3349.00,0.0338
3348.00,0.0337
3347.00,0.0337
3346.00,0.0337
3345.00,0.0336
3344.00,0.0336
3343.00,0.0336
3342.00,0.0335
3341.00,0.0335
3340.00,0.0334
3339.00,0.0333
3338.00,0.0333
3337.00,0.0333
3336.00,0.0332
3335.00,0.0332
3334.00,0.0331
3333.00,0.0331
3332.00,0.0331
3331.00,0.0330
3330.00,0.0329
3329.00,0.0329
3328.00,0.0328
3327.00,0.0328
3326.00,0.0327
3325.00,0.0327
3324.00,0.0327
3323.00,0.0326
3322.00,0.0326
3321.00,0.0325
3320.00,0.0325
3319.00,0.0324
3318.00,0.0324
3317.00,0.0323
3316.00,0.0322
3315.00,0.0322
3314.00,0.0321
3313.00,0.0320
3312.00,0.0319
3311.00,0.0319
3310.00,0.0318
3309.00,0.0318
3308.00,0.0317
3307.00,0.0316
3306.00,0.0316
3305.00,0.0315
3304.00,0.0314
3303.00,0.0313
3302.00,0.0313
3301.00,0.0312
3300.00,0.0311
3299.00,0.0310
3298.00,0.0310
3297.00,0.0309
3296.00,0.0308
3295.00,0.0307
3294.00,0.0307
3293.00,0.0306
3292.00,0.0305
3291.00,0.0304
3290.00,0.0303
3289.00,0.0303
3288.00,0.0302
3287.00,0.0301
3286.00,0.0300
3285.00,0.0300
3284.00,0.0299
3283.00,0.0298
3282.00,0.0297
3281.00,0.0296
3280.00,0.0295
3279.00,0.0294
3278.00,0.0293
3277.00,0.0293
3276.00,0.0292
3275.00,0.0291
3274.00,0.0290
3273.00,0.0289
3272.00,0.0288
3271.00,0.0288
3270.00,0.0287
3269.00,0.0286
3268.00,0.0285
3267.00,0.0285
3266.00,0.0284
3265.00,0.0283
3264.00,0.0283
3263.00,0.0282
3262.00,0.0281
3261.00,0.0280
3260.00,0.0280
3259.00,0.0279
3258.00,0.0279
3257.00,0.0278
3256.00,0.0277
3255.00,0.0275
3254.00,0.0275
3253.00,0.0274
3252.00,0.0273
3251.00,0.0273
3250.00,0.0272
3249.00,0.0271
3248.00,0.0270
3247.00,0.0270
3246.00,0.0269
3245.00,0.0269
3244.00,0.0268
3243.00,0.0268
3242.00,0.0267
3241.00,0.0266
3240.00,0.0266
3239.00,0.0265
3238.00,0.0264
3237.00,0.0264
3236.00,0.0263
3235.00,0.0262
3234.00,0.0262
3233.00,0.0261
3232.00,0.0261
3231.00,0.0260
3230.00,0.0260
3229.00,0.0260
3228.00,0.0259
3227.00,0.0258
3226.00,0.0258
3225.00,0.0257
3224.00,0.0256
3223.00,0.0256
3222.00,0.0255
3221.00,0.0255
3220.00,0.0254
3219.00,0.0254
3218.00,0.0253
3217.00,0.0253
3216.00,0.0252
3215.00,0.0252
3214.00,0.0252
3213.00,0.0251
3212.00,0.0251
3211.00,0.0250
3210.00,0.0250
3209.00,0.0249
3208.00,0.0248
3207.00,0.0247
3206.00,0.0247
3205.00,0.0247
3204.00,0.0246
3203.00,0.0246
3202.00,0.0245
3201.00,0.0244
3200.00,0.0244
3199.00,0.0243
3198.00,0.0243
3197.00,0.0242
3196.00,0.0242
3195.00,0.0241
3194.00,0.0241
3193.00,0.0240
3192.00,0.0239
3191.00,0.0238
3190.00,0.0238
3189.00,0.0237
3188.00,0.0237
3187.00,0.0236
3186.00,0.0236
3185.00,0.0235
3184.00,0.0234
3183.00,0.0234
3182.00,0.0233
3181.00,0.0232
3180.00,0.0232
3179.00,0.0231
3178.00,0.0230
3177.00,0.0229
3176.00,0.0229
3175.00,0.0228
3174.00,0.0227
3173.00,0.0227
3172.00,0.0226
3171.00,0.0225
3170.00,0.0224
3169.00,0.0224
3168.00,0.0223
3167.00,0.0223
3166.00,0.0222
3165.00,0.0222
3164.00,0.0221
3163.00,0.0220
3162.00,0.0219
3161.00,0.0219
3160.00,0.0218
3159.00,0.0217
3158.00,0.0217
3157.00,0.0216
3156.00,0.0215
3155.00,0.0215
3154.00,0.0214
3153.00,0.0213
3152.00,0.0212
3151.00,0.0211
3150.00,0.0211
3149.00,0.0210
3148.00,0.0209
3147.00,0.0209
3146.00,0.0208
3145.00,0.0208
3144.00,0.0207
3143.00,0.0206
3142.00,0.0206
3141.00,0.0205
3140.00,0.0205
3139.00,0.0205
3138.00,0.0205
3137.00,0.0204
3136.00,0.0204
3135.00,0.0204
3134.00,0.0204
3133.00,0.0203
3132.00,0.0203
3131.00,0.0203
3130.00,0.0203
3129.00,0.0203
3128.00,0.0203
3127.00,0.0203
3126.00,0.0202
3125.00,0.0202
3124.00,0.0201
3123.00,0.0201
3122.00,0.0200
3121.00,0.0200
3120.00,0.0200
3119.00,0.0199
3118.00,0.0199
3117.00,0.0198
3116.00,0.0198
3115.00,0.0197
3114.00,0.0197
3113.00,0.0197
3112.00,0.0197
3111.00,0.0197
3110.00,0.0198
3109.00,0.0198
3108.00,0.0198
3107.00,0.0199
3106.00,0.0199
3105.00,0.0200
3104.00,0.0201
3103.00,0.0202
3102.00,0.0202
3101.00,0.0203
3100.00,0.0203
3099.00,0.0203
3098.00,0.0203
3097.00,0.0203
3096.00,0.0202
3095.00,0.0202
3094.00,0.0201
3093.00,0.0201
3092.00,0.0200
3091.00,0.0200
3090.00,0.0199
3089.00,0.0199
3088.00,0.0199
3087.00,0.0198
3086.00,0.0199
3085.00,0.0199
3084.00,0.0199
3083.00,0.0200
3082.00,0.0201
3081.00,0.0202
3080.00,0.0203
3079.00,0.0204
3078.00,0.0206
3077.00,0.0207
3076.00,0.0209
3075.00,0.0211
3074.00,0.0212
3073.00,0.0214
3072.00,0.0215
3071.00,0.0217
3070.00,0.0218
3069.00,0.0219
3068.00,0.0221
3067.00,0.0222
3066.00,0.0224
3065.00,0.0225
3064.00,0.0227
3063.00,0.0228
3062.00,0.0229
3061.00,0.0229
3060.00,0.0230
3059.00,0.0230
3058.00,0.0231
3057.00,0.0231
3056.00,0.0230
3055.00,0.0230
3054.00,0.0229
3053.00,0.0229
3052.00,0.0228
3051.00,0.0227
3050.00,0.0226
3049.00,0.0226
3048.00,0.0225
3047.00,0.0225
3046.00,0.0226
3045.00,0.0227
3044.00,0.0228
3043.00,0.0230
3042.00,0.0231
3041.00,0.0233
3040.00,0.0235
3039.00,0.0237
3038.00,0.0239
3037.00,0.0239
3036.00,0.0240
3035.00,0.0239
3034.00,0.0238
3033.00,0.0237
3032.00,0.0234
3031.00,0.0232
3030.00,0.0229
3029.00,0.0226
3028.00,0.0223
3027.00,0.0220
3026.00,0.0217
3025.00,0.0215
3024.00,0.0213
3023.00,0.0211
3022.00,0.0209
3021.00,0.0208
3020.00,0.0207
3019.00,0.0206
3018.00,0.0205
3017.00,0.0205
3016.00,0.0205
3015.00,0.0205
3014.00,0.0206
3013.00,0.0207
3012.00,0.0209
3011.00,0.0211
3010.00,0.0213
3009.00,0.0215
3008.00,0.0218
3007.00,0.0220
3006.00,0.0223
3005.00,0.0225
3004.00,0.0228
3003.00,0.0231
3002.00,0.0234
3001.00,0.0237
3000.00,0.0240
2999.00,0.0244
2998.00,0.0247
2997.00,0.0252
2996.00,0.0256
2995.00,0.0262
2994.00,0.0268
2993.00,0.0274
2992.00,0.0282
2991.00,0.0290
2990.00,0.0298
2989.00,0.0307
2988.00,0.0317
2987.00,0.0328
2986.00,0.0339
2985.00,0.0351
2984.00,0.0363
2983.00,0.0376
2982.00,0.0390
2981.00,0.0404
2980.00,0.0420
2979.00,0.0435
2978.00,0.0452
2977.00,0.0469
2976.00,0.0486
2975.00,0.0504
2974.00,0.0522
2973.00,0.0541
2972.00,0.0560
2971.00,0.0578
2970.00,0.0596
2969.00,0.0613
2968.00,0.0629
2967.00,0.0644
2966.00,0.0657
2965.00,0.0668
2964.00,0.0678
2963.00,0.0685
2962.00,0.0690
2961.00,0.0694
2960.00,0.0697
2959.00,0.0699
2958.00,0.0700
2957.00,0.0701
2956.00,0.0703
2955.00,0.0705
2954.00,0.0707
2953.00,0.0710
2952.00,0.0714
2951.00,0.0719
2950.00,0.0723
2949.00,0.0729
2948.00,0.0735
2947.00,0.0742
2946.00,0.0749
2945.00,0.0757
2944.00,0.0766
2943.00,0.0776
2942.00,0.0787
2941.00,0.0799
2940.00,0.0813
2939.00,0.0828
2938.00,0.0845
2937.00,0.0863
2936.00,0.0883
2935.00,0.0905
2934.00,0.0928
2933.00,0.0952
2932.00,0.0977
2931.00,0.1002
2930.00,0.1027
2929.00,0.1052
2928.00,0.1077
2927.00,0.1100
2926.00,0.1122
2925.00,0.1141
2924.00,0.1158
2923.00,0.1173
2922.00,0.1185
2921.00,0.1194
2920.00,0.1199
2919.00,0.1202
2918.00,0.1202
2917.00,0.1198
2916.00,0.1192
2915.00,0.1183
2914.00,0.1172
2913.00,0.1160
2912.00,0.1147
2911.00,0.1132
2910.00,0.1118
2909.00,0.1103
2908.00,0.1087
2907.00,0.1071
2906.00,0.1054
2905.00,0.1037
2904.00,0.1021
2903.00,0.1004
2902.00,0.0987
2901.00,0.0971
2900.00,0.0956
2899.00,0.0941
2898.00,0.0927
2897.00,0.0914
2896.00,0.0901
2895.00,0.0890
2894.00,0.0879
2893.00,0.0868
2892.00,0.0858
2891.00,0.0848
2890.00,0.0837
2889.00,0.0827
2888.00,0.0817
2887.00,0.0807
2886.00,0.0798
2885.00,0.0789
2884.00,0.0781
2883.00,0.0774
2882.00,0.0769
2881.00,0.0765
2880.00,0.0764
2879.00,0.0764
2878.00,0.0765
2877.00,0.0768
2876.00,0.0771
2875.00,0.0776
2874.00,0.0781
2873.00,0.0786
2872.00,0.0791
2871.00,0.0795
2870.00,0.0797
2869.00,0.0798
2868.00,0.0797
2867.00,0.0794
2866.00,0.0789
2865.00,0.0784
2864.00,0.0778
2863.00,0.0771
2862.00,0.0764
2861.00,0.0758
2860.00,0.0753
2859.00,0.0748
2858.00,0.0744
2857.00,0.0741
2856.00,0.0738
2855.00,0.0735
2854.00,0.0732
2853.00,0.0730
2852.00,0.0727
2851.00,0.0724
2850.00,0.0719
2849.00,0.0714
2848.00,0.0708
2847.00,0.0701
2846.00,0.0694
2845.00,0.0687
2844.00,0.0679
2843.00,0.0670
2842.00,0.0661
2841.00,0.0649
2840.00,0.0637
2839.00,0.0623
2838.00,0.0608
2837.00,0.0592
2836.00,0.0575
2835.00,0.0557
2834.00,0.0538
2833.00,0.0519
2832.00,0.0501
2831.00,0.0482
2830.00,0.0464
2829.00,0.0447
2828.00,0.0431
2827.00,0.0417
2826.00,0.0404
2825.00,0.0392
2824.00,0.0382
2823.00,0.0373
2822.00,0.0365
2821.00,0.0357
2820.00,0.0350
2819.00,0.0344
2818.00,0.0339
2817.00,0.0333
2816.00,0.0328
2815.00,0.0324
2814.00,0.0319
2813.00,0.0315
2812.00,0.0311
2811.00,0.0307
2810.00,0.0303
2809.00,0.0299
2808.00,0.0296
2807.00,0.0293
2806.00,0.0289
2805.00,0.0286
2804.00,0.0283
2803.00,0.0280
2802.00,0.0276
2801.00,0.0273
2800.00,0.0270
2799.00,0.0266
2798.00,0.0263
2797.00,0.0260
2796.00,0.0257
2795.00,0.0254
2794.00,0.0251
2793.00,0.0248
2792.00,0.0245
2791.00,0.0242
2790.00,0.0239
2789.00,0.0237
2788.00,0.0234
2787.00,0.0232
2786.00,0.0229
2785.00,0.0226
2784.00,0.0224
2783.00,0.0222
2782.00,0.0220
2781.00,0.0218
2780.00,0.0216
2779.00,0.0214
2778.00,0.0212
2777.00,0.0210
2776.00,0.0209
2775.00,0.0207
2774.00,0.0205
2773.00,0.0204
2772.00,0.0203
2771.00,0.0202
2770.00,0.0201
2769.00,0.0200
2768.00,0.0199
2767.00,0.0198
2766.00,0.0197
2765.00,0.0196
2764.00,0.0196
2763.00,0.0195
2762.00,0.0194
2761.00,0.0193
2760.00,0.0193
2759.00,0.0192
2758.00,0.0191
2757.00,0.0191
2756.00,0.0190
2755.00,0.0190
2754.00,0.0189
2753.00,0.0188
2752.00,0.0188
2751.00,0.0187
2750.00,0.0186
2749.00,0.0186
2748.00,0.0185
2747.00,0.0185
2746.00,0.0184
2745.00,0.0184
2744.00,0.0184
2743.00,0.0183
2742.00,0.0183
2741.00,0.0183
2740.00,0.0182
2739.00,0.0182
2738.00,0.0182
2737.00,0.0182
2736.00,0.0182
2735.00,0.0182
2734.00,0.0182
2733.00,0.0182
2732.00,0.0182
2731.00,0.0182
2730.00,0.0182
2729.00,0.0181
2728.00,0.0181
2727.00,0.0181
2726.00,0.0180
2725.00,0.0180
2724.00,0.0180
2723.00,0.0180
2722.00,0.0179
2721.00,0.0179
2720.00,0.0179
2719.00,0.0178
2718.00,0.0178
2717.00,0.0177
2716.00,0.0176
2715.00,0.0175
2714.00,0.0175
2713.00,0.0174
2712.00,0.0173
2711.00,0.0172
2710.00,0.0172
2709.00,0.0171
2708.00,0.0170
2707.00,0.0170
2706.00,0.0169
2705.00,0.0168
2704.00,0.0168
2703.00,0.0167
2702.00,0.0166
2701.00,0.0166
2700.00,0.0165
2699.00,0.0165
2698.00,0.0164
2697.00,0.0164
2696.00,0.0164
2695.00,0.0163
2694.00,0.0163
2693.00,0.0162
2692.00,0.0162
2691.00,0.0162
2690.00,0.0161
2689.00,0.0161
2688.00,0.0161
2687.00,0.0161
2686.00,0.0160
2685.00,0.0160
2684.00,0.0159
2683.00,0.0159
2682.00,0.0159
2681.00,0.0158
2680.00,0.0158
2679.00,0.0158
2678.00,0.0158
2677.00,0.0157
2676.00,0.0157
2675.00,0.0157
2674.00,0.0156
2673.00,0.0156
2672.00,0.0156
2671.00,0.0155
2670.00,0.0155
2669.00,0.0155
2668.00,0.0154
2667.00,0.0154
2666.00,0.0154
2665.00,0.0153
2664.00,0.0153
2663.00,0.0153
2662.00,0.0153
2661.00,0.0152
2660.00,0.0152
2659.00,0.0152
2658.00,0.0151
2657.00,0.0151
2656.00,0.0151
2655.00,0.0151
2654.00,0.0150
2653.00,0.0150
2652.00,0.0150
2651.00,0.0149
2650.00,0.0149
2649.00,0.0149
2648.00,0.0148
2647.00,0.0148
2646.00,0.0147
2645.00,0.0147
2644.00,0.0147
2643.00,0.0147
2642.00,0.0147
2641.00,0.0146
2640.00,0.0146
2639.00,0.0146
2638.00,0.0146
2637.00,0.0146
2636.00,0.0146
2635.00,0.0145
2634.00,0.0145
2633.00,0.0145
2632.00,0.0145
2631.00,0.0145
2630.00,0.0145
2629.00,0.0145
2628.00,0.0145
2627.00,0.0145
2626.00,0.0145
2625.00,0.0145
2624.00,0.0145
2623.00,0.0145
2622.00,0.0145
2621.00,0.0145
2620.00,0.0145
2619.00,0.0144
2618.00,0.0144
2617.00,0.0144
2616.00,0.0145
2615.00,0.0145
2614.00,0.0145
2613.00,0.0144
2612.00,0.0144
2611.00,0.0144
2610.00,0.0144
2609.00,0.0144
2608.00,0.0144
2607.00,0.0144
2606.00,0.0144
2605.00,0.0144
2604.00,0.0144
2603.00,0.0144
2602.00,0.0144
2601.00,0.0144
2600.00,0.0144
2599.00,0.0144
2598.00,0.0144
2597.00,0.0144
2596.00,0.0144
2595.00,0.0144
2594.00,0.0144
2593.00,0.0144
2592.00,0.0144
2591.00,0.0143
2590.00,0.0143
2589.00,0.0143
2588.00,0.0143
2587.00,0.0142
2586.00,0.0142
2585.00,0.0142
2584.00,0.0141
2583.00,0.0141
2582.00,0.0141
2581.00,0.0140
2580.00,0.0140
2579.00,0.0140
2578.00,0.0139
2577.00,0.0139
2576.00,0.0139
2575.00,0.0138
2574.00,0.0138
2573.00,0.0138
2572.00,0.0138
2571.00,0.0138
2570.00,0.0138
2569.00,0.0138
2568.00,0.0138
2567.00,0.0137
2566.00,0.0137
2565.00,0.0137
2564.00,0.0137
2563.00,0.0137
2562.00,0.0137
2561.00,0.0137
2560.00,0.0137
2559.00,0.0137
2558.00,0.0137
2557.00,0.0137
2556.00,0.0138
2555.00,0.0138
2554.00,0.0138
2553.00,0.0137
2552.00,0.0137
2551.00,0.0137
2550.00,0.0137
2549.00,0.0138
2548.00,0.0138
2547.00,0.0138
2546.00,0.0138
2545.00,0.0137
2544.00,0.0138
2543.00,0.0138
2542.00,0.0138
2541.00,0.0138
2540.00,0.0139
2539.00,0.0139
2538.00,0.0139
2537.00,0.0140
2536.00,0.0141
2535.00,0.0141
2534.00,0.0142
2533.00,0.0143
2532.00,0.0144
2531.00,0.0145
2530.00,0.0146
2529.00,0.0146
2528.00,0.0147
2527.00,0.0148
2526.00,0.0148
2525.00,0.0149
2524.00,0.0149
2523.00,0.0150
2522.00,0.0150
2521.00,0.0151
2520.00,0.0151
2519.00,0.0151
2518.00,0.0151
2517.00,0.0151
2516.00,0.0151
2515.00,0.0151
2514.00,0.0151
2513.00,0.0151
2512.00,0.0151
2511.00,0.0151
2510.00,0.0150
2509.00,0.0149
2508.00,0.0148
2507.00,0.0147
2506.00,0.0146
2505.00,0.0145
2504.00,0.0144
2503.00,0.0142
2502.00,0.0141
2501.00,0.0139
2500.00,0.0138
2499.00,0.0137
2498.00,0.0135
2497.00,0.0134
2496.00,0.0133
2495.00,0.0132
2494.00,0.0131
2493.00,0.0130
2492.00,0.0129
2491.00,0.0128
2490.00,0.0128
2489.00,0.0127
2488.00,0.0126
2487.00,0.0125
2486.00,0.0125
2485.00,0.0124
2484.00,0.0123
2483.00,0.0123
2482.00,0.0122
2481.00,0.0121
2480.00,0.0121
2479.00,0.0121
2478.00,0.0120
2477.00,0.0119
2476.00,0.0119
2475.00,0.0118
2474.00,0.0118
2473.00,0.0118
2472.00,0.0117
2471.00,0.0117
2470.00,0.0117
2469.00,0.0116
2468.00,0.0116
2467.00,0.0115
2466.00,0.0115
2465.00,0.0114
2464.00,0.0114
2463.00,0.0114
2462.00,0.0114
2461.00,0.0114
2460.00,0.0114
2459.00,0.0113
2458.00,0.0113
2457.00,0.0113
2456.00,0.0113
2455.00,0.0113
2454.00,0.0113
2453.00,0.0113
2452.00,0.0113
2451.00,0.0112
2450.00,0.0112
2449.00,0.0113
2448.00,0.0113
2447.00,0.0112
2446.00,0.0112
2445.00,0.0112
2444.00,0.0112
2443.00,0.0112
2442.00,0.0112
2441.00,0.0112
2440.00,0.0112
2439.00,0.0112
2438.00,0.0112
2437.00,0.0112
2436.00,0.0112
2435.00,0.0112
2434.00,0.0111
2433.00,0.0111
2432.00,0.0111
2431.00,0.0111
2430.00,0.0111
2429.00,0.0111
2428.00,0.0111
2427.00,0.0110
2426.00,0.0110
2425.00,0.0110
2424.00,0.0110
2423.00,0.0109
2422.00,0.0108
2421.00,0.0108
2420.00,0.0107
2419.00,0.0107
2418.00,0.0106
2417.00,0.0106
2416.00,0.0106
2415.00,0.0105
2414.00,0.0105
2413.00,0.0105
2412.00,0.0104
2411.00,0.0104
2410.00,0.0103
2409.00,0.0103
2408.00,0.0103
2407.00,0.0102
2406.00,0.0102
2405.00,0.0101
2404.00,0.0101
2403.00,0.0100
2402.00,0.0100
2401.00,0.0100
2400.00,0.0100
2399.00,0.0100
2398.00,0.0099
2397.00,0.0099
2396.00,0.0099
2395.00,0.0099
2394.00,0.0098
2393.00,0.0098
2392.00,0.0098
2391.00,0.0098
2390.00,0.0097
2389.00,0.0097
2388.00,0.0097
2387.00,0.0097
2386.00,0.0096
2385.00,0.0096
2384.00,0.0096
2383.00,0.0096
2382.00,0.0095
2381.00,0.0095
2380.00,0.0095
2379.00,0.0095
2378.00,0.0095
2377.00,0.0095
2376.00,0.0095
2375.00,0.0094
2374.00,0.0094
2373.00,0.0094
2372.00,0.0094
2371.00,0.0094
2370.00,0.0093
2369.00,0.0093
2368.00,0.0093
2367.00,0.0093
2366.00,0.0093
2365.00,0.0093
2364.00,0.0093
2363.00,0.0093
2362.00,0.0093
2361.00,0.0093
2360.00,0.0093
2359.00,0.0093
2358.00,0.0093
2357.00,0.0093
2356.00,0.0093
2355.00,0.0093
2354.00,0.0092
2353.00,0.0092
2352.00,0.0093
2351.00,0.0093
2350.00,0.0093
2349.00,0.0093
2348.00,0.0094
2347.00,0.0094
2346.00,0.0094
2345.00,0.0093
2344.00,0.0093
2343.00,0.0093
2342.00,0.0093
2341.00,0.0093
2340.00,0.0094
2339.00,0.0094
2338.00,0.0094
2337.00,0.0094
2336.00,0.0094
2335.00,0.0094
2334.00,0.0093
2333.00,0.0094
2332.00,0.0094
2331.00,0.0094
2330.00,0.0094
2329.00,0.0094
2328.00,0.0094
2327.00,0.0096
2326.00,0.0098
2325.00,0.0100
2324.00,0.0101
2323.00,0.0101
2322.00,0.0100
2321.00,0.0100
2320.00,0.0099
2319.00,0.0099
2318.00,0.0098
2317.00,0.0097
2316.00,0.0097
2315.00,0.0097
2314.00,0.0096
2313.00,0.0096
2312.00,0.0096
2311.00,0.0095
2310.00,0.0095
2309.00,0.0095
2308.00,0.0095
2307.00,0.0095
2306.00,0.0095
2305.00,0.0095
2304.00,0.0095
2303.00,0.0095
2302.00,0.0095
2301.00,0.0095
2300.00,0.0095
2299.00,0.0095
2298.00,0.0095
2297.00,0.0096
2296.00,0.0096
2295.00,0.0096
2294.00,0.0096
2293.00,0.0097
2292.00,0.0097
2291.00,0.0097
2290.00,0.0097
2289.00,0.0097
2288.00,0.0098
2287.00,0.0098
2286.00,0.0098
2285.00,0.0098
2284.00,0.0097
2283.00,0.0097
2282.00,0.0096
2281.00,0.0096
2280.00,0.0096
2279.00,0.0095
2278.00,0.0095
2277.00,0.0095
2276.00,0.0095
2275.00,0.0094
2274.00,0.0094
2273.00,0.0094
2272.00,0.0094
2271.00,0.0094
2270.00,0.0094
2269.00,0.0093
2268.00,0.0093
2267.00,0.0092
2266.00,0.0092
2265.00,0.0092
2264.00,0.0092
2263.00,0.0092
2262.00,0.0092
2261.00,0.0092
2260.00,0.0093
2259.00,0.0093
2258.00,0.0092
2257.00,0.0092
2256.00,0.0092
2255.00,0.0092
2254.00,0.0092
2253.00,0.0092
2252.00,0.0093
2251.00,0.0093
2250.00,0.0093
2249.00,0.0092
2248.00,0.0091
2247.00,0.0091
2246.00,0.0090
2245.00,0.0090
2244.00,0.0091
2243.00,0.0091
2242.00,0.0091
2241.00,0.0091
2240.00,0.0092
2239.00,0.0091
2238.00,0.0091
2237.00,0.0091
2236.00,0.0091
2235.00,0.0091
2234.00,0.0092
2233.00,0.0092
2232.00,0.0092
2231.00,0.0092
2230.00,0.0091
2229.00,0.0091
2228.00,0.0091
2227.00,0.0091
2226.00,0.0091
2225.00,0.0091
2224.00,0.0091
2223.00,0.0091
2222.00,0.0091
2221.00,0.0091
2220.00,0.0091
2219.00,0.0090
2218.00,0.0090
2217.00,0.0090
2216.00,0.0091
2215.00,0.0091
2214.00,0.0091
2213.00,0.0090
2212.00,0.0091
2211.00,0.0090
2210.00,0.0090
2209.00,0.0089
2208.00,0.0090
2207.00,0.0090
2206.00,0.0090
2205.00,0.0090
2204.00,0.0091
2203.00,0.0091
2202.00,0.0090
2201.00,0.0090
2200.00,0.0091
2199.00,0.0091
2198.00,0.0090
2197.00,0.0091
2196.00,0.0091
2195.00,0.0091
2194.00,0.0091
2193.00,0.0091
2192.00,0.0091
2191.00,0.0091
2190.00,0.0091
2189.00,0.0091
2188.00,0.0091
2187.00,0.0091
2186.00,0.0091
2185.00,0.0091
2184.00,0.0091
2183.00,0.0090
2182.00,0.0088
2181.00,0.0088
2180.00,0.0088
2179.00,0.0088
2178.00,0.0088
2177.00,0.0088
2176.00,0.0088
2175.00,0.0088
2174.00,0.0087
2173.00,0.0088
2172.00,0.0089
2171.00,0.0090
2170.00,0.0091
2169.00,0.0092
2168.00,0.0094
2167.00,0.0094
2166.00,0.0094
2165.00,0.0095
2164.00,0.0097
2163.00,0.0097
2162.00,0.0097
2161.00,0.0095
2160.00,0.0091
2159.00,0.0085
2158.00,0.0080
2157.00,0.0078
2156.00,0.0077
2155.00,0.0078
2154.00,0.0078
2153.00,0.0080
2152.00,0.0082
2151.00,0.0083
2150.00,0.0083
2149.00,0.0084
2148.00,0.0084
2147.00,0.0083
2146.00,0.0082
2145.00,0.0082
2144.00,0.0083
2143.00,0.0084
2142.00,0.0084
2141.00,0.0085
2140.00,0.0085
2139.00,0.0085
2138.00,0.0084
2137.00,0.0084
2136.00,0.0084
2135.00,0.0083
2134.00,0.0082
2133.00,0.0082
2132.00,0.0083
2131.00,0.0084
2130.00,0.0084
2129.00,0.0085
2128.00,0.0086
2127.00,0.0086
2126.00,0.0087
2125.00,0.0087
2124.00,0.0088
2123.00,0.0089
2122.00,0.0089
2121.00,0.0090
2120.00,0.0090
2119.00,0.0090
2118.00,0.0090
2117.00,0.0091
2116.00,0.0091
2115.00,0.0091
2114.00,0.0091
2113.00,0.0092
2112.00,0.0092
2111.00,0.0093
2110.00,0.0092
2109.00,0.0092
2108.00,0.0093
2107.00,0.0093
2106.00,0.0093
2105.00,0.0093
2104.00,0.0093
2103.00,0.0093
2102.00,0.0093
2101.00,0.0093
2100.00,0.0094
2099.00,0.0094
2098.00,0.0094
2097.00,0.0094
2096.00,0.0094
2095.00,0.0094
2094.00,0.0094
2093.00,0.0094
2092.00,0.0095
2091.00,0.0096
2090.00,0.0097
2089.00,0.0098
2088.00,0.0099
2087.00,0.0099
2086.00,0.0099
2085.00,0.0100
2084.00,0.0101
2083.00,0.0101
2082.00,0.0102
2081.00,0.0102
2080.00,0.0103
2079.00,0.0103
2078.00,0.0103
2077.00,0.0103
2076.00,0.0103
2075.00,0.0103
2074.00,0.0103
2073.00,0.0103
2072.00,0.0103
2071.00,0.0103
2070.00,0.0103
2069.00,0.0103
2068.00,0.0103
2067.00,0.0102
2066.00,0.0101
2065.00,0.0101
2064.00,0.0100
2063.00,0.0100
2062.00,0.0100
2061.00,0.0100
2060.00,0.0100
2059.00,0.0100
2058.00,0.0099
2057.00,0.0099
2056.00,0.0099
2055.00,0.0099
2054.00,0.0099
2053.00,0.0100
2052.00,0.0102
2051.00,0.0102
2050.00,0.0102
2049.00,0.0100
2048.00,0.0099
2047.00,0.0098
2046.00,0.0097
2045.00,0.0097
2044.00,0.0097
2043.00,0.0097
2042.00,0.0096
2041.00,0.0096
2040.00,0.0097
2039.00,0.0097
2038.00,0.0097
2037.00,0.0096
2036.00,0.0096
2035.00,0.0095
2034.00,0.0093
2033.00,0.0093
2032.00,0.0094
2031.00,0.0094
2030.00,0.0093
2029.00,0.0093
2028.00,0.0094
2027.00,0.0094
2026.00,0.0094
2025.00,0.0095
2024.00,0.0096
2023.00,0.0096
2022.00,0.0095
2021.00,0.0094
2020.00,0.0095
2019.00,0.0094
2018.00,0.0094
2017.00,0.0094
2016.00,0.0095
2015.00,0.0095
2014.00,0.0095
2013.00,0.0096
2012.00,0.0096
2011.00,0.0096
2010.00,0.0096
2009.00,0.0095
2008.00,0.0095
2007.00,0.0094
2006.00,0.0093
2005.00,0.0093
2004.00,0.0095
2003.00,0.0095
2002.00,0.0095
2001.00,0.0095
2000.00,0.0095
1999.00,0.0096
1998.00,0.0096
1997.00,0.0096
1996.00,0.0096
1995.00,0.0096
1994.00,0.0096
1993.00,0.0096
1992.00,0.0097
1991.00,0.0097
1990.00,0.0097
1989.00,0.0097
1988.00,0.0098
1987.00,0.0098
1986.00,0.0097
1985.00,0.0096
1984.00,0.0097
1983.00,0.0098
1982.00,0.0099
1981.00,0.0100
1980.00,0.0101
1979.00,0.0100
1978.00,0.0096
1977.00,0.0094
1976.00,0.0093
1975.00,0.0091
1974.00,0.0090
1973.00,0.0089
1972.00,0.0089
1971.00,0.0088
1970.00,0.0088
1969.00,0.0088
1968.00,0.0089
1967.00,0.0089
1966.00,0.0089
1965.00,0.0089
1964.00,0.0089
1963.00,0.0089
1962.00,0.0089
1961.00,0.0089
1960.00,0.0090
1959.00,0.0089
1958.00,0.0089
1957.00,0.0089
1956.00,0.0090
1955.00,0.0091
1954.00,0.0091
1953.00,0.0091
1952.00,0.0092
1951.00,0.0092
1950.00,0.0091
1949.00,0.0092
1948.00,0.0092
1947.00,0.0092
1946.00,0.0091
1945.00,0.0091
1944.00,0.0091
1943.00,0.0092
1942.00,0.0092
1941.00,0.0092
1940.00,0.0093
1939.00,0.0093
1938.00,0.0093
1937.00,0.0093
1936.00,0.0094
1935.00,0.0094
1934.00,0.0093
1933.00,0.0093
1932.00,0.0093
1931.00,0.0093
1930.00,0.0093
1929.00,0.0094
1928.00,0.0095
1927.00,0.0095
1926.00,0.0095
1925.00,0.0095
1924.00,0.0095
1923.00,0.0094
1922.00,0.0094
1921.00,0.0095
1920.00,0.0096
1919.00,0.0096
1918.00,0.0096
1917.00,0.0097
1916.00,0.0099
1915.00,0.0100
1914.00,0.0100
1913.00,0.0101
1912.00,0.0102
1911.00,0.0102
1910.00,0.0103
1909.00,0.0104
1908.00,0.0105
1907.00,0.0107
1906.00,0.0107
1905.00,0.0109
1904.00,0.0110
1903.00,0.0111
1902.00,0.0112
1901.00,0.0113
1900.00,0.0115
1899.00,0.0116
1898.00,0.0117
1897.00,0.0118
1896.00,0.0120
1895.00,0.0122
1894.00,0.0123
1893.00,0.0125
1892.00,0.0126
1891.00,0.0127
1890.00,0.0128
1889.00,0.0129
1888.00,0.0130
1887.00,0.0131
1886.00,0.0131
1885.00,0.0131
1884.00,0.0132
1883.00,0.0132
1882.00,0.0132
1881.00,0.0132
1880.00,0.0132
1879.00,0.0131
1878.00,0.0130
1877.00,0.0130
1876.00,0.0129
1875.00,0.0129
1874.00,0.0128
1873.00,0.0127
1872.00,0.0126
1871.00,0.0125
1870.00,0.0123
1869.00,0.0122
1868.00,0.0122
1867.00,0.0121
1866.00,0.0120
1865.00,0.0120
1864.00,0.0119
1863.00,0.0118
1862.00,0.0116
1861.00,0.0115
1860.00,0.0114
1859.00,0.0113
1858.00,0.0112
1857.00,0.0111
1856.00,0.0110
1855.00,0.0109
1854.00,0.0108
1853.00,0.0108
1852.00,0.0107
1851.00,0.0106
1850.00,0.0105
1849.00,0.0104
1848.00,0.0103
1847.00,0.0102
1846.00,0.0100
1845.00,0.0099
1844.00,0.0099
1843.00,0.0099
1842.00,0.0099
1841.00,0.0100
1840.00,0.0100
1839.00,0.0101
1838.00,0.0100
1837.00,0.0100
1836.00,0.0100
1835.00,0.0100
1834.00,0.0100
1833.00,0.0100
1832.00,0.0100
1831.00,0.0100
1830.00,0.0100
1829.00,0.0099
1828.00,0.0100
1827.00,0.0100
1826.00,0.0099
1825.00,0.0099
1824.00,0.0100
1823.00,0.0101
1822.00,0.0101
1821.00,0.0101
1820.00,0.0102
1819.00,0.0102
1818.00,0.0101
1817.00,0.0102
1816.00,0.0103
1815.00,0.0104
1814.00,0.0104
1813.00,0.0105
1812.00,0.0107
1811.00,0.0108
1810.00,0.0109
1809.00,0.0111
1808.00,0.0114
1807.00,0.0117
1806.00,0.0120
1805.00,0.0124
1804.00,0.0130
1803.00,0.0135
1802.00,0.0142
1801.00,0.0150
1800.00,0.0157
1799.00,0.0162
1798.00,0.0164
1797.00,0.0165
1796.00,0.0166
1795.00,0.0165
1794.00,0.0163
1793.00,0.0158
1792.00,0.0151
1791.00,0.0144
1790.00,0.0139
1789.00,0.0135
1788.00,0.0131
1787.00,0.0128
1786.00,0.0124
1785.00,0.0122
1784.00,0.0121
1783.00,0.0121
1782.00,0.0121
1781.00,0.0120
1780.00,0.0120
1779.00,0.0120
1778.00,0.0120
1777.00,0.0120
1776.00,0.0120
1775.00,0.0121
1774.00,0.0121
1773.00,0.0122
1772.00,0.0123
1771.00,0.0123
1770.00,0.0123
1769.00,0.0124
1768.00,0.0125
1767.00,0.0128
1766.00,0.0130
1765.00,0.0132
1764.00,0.0134
1763.00,0.0136
1762.00,0.0138
1761.00,0.0140
1760.00,0.0142
1759.00,0.0145
1758.00,0.0148
1757.00,0.0152
1756.00,0.0158
1755.00,0.0163
1754.00,0.0167
1753.00,0.0172
1752.00,0.0179
1751.00,0.0190
1750.00,0.0204
1749.00,0.0222
1748.00,0.0242
1747.00,0.0262
1746.00,0.0282
1745.00,0.0304
1744.00,0.0328
1743.00,0.0350
1742.00,0.0371
1741.00,0.0391
1740.00,0.0409
1739.00,0.0423
1738.00,0.0432
1737.00,0.0438
1736.00,0.0441
1735.00,0.0442
1734.00,0.0442
1733.00,0.0442
1732.00,0.0441
1731.00,0.0437
1730.00,0.0431
1729.00,0.0423
1728.00,0.0414
1727.00,0.0404
1726.00,0.0391
1725.00,0.0378
1724.00,0.0362
1723.00,0.0347
1722.00,0.0333
1721.00,0.0320
1720.00,0.0309
1719.00,0.0294
1718.00,0.0276
1717.00,0.0260
1716.00,0.0249
1715.00,0.0242
1714.00,0.0236
1713.00,0.0231
1712.00,0.0227
1711.00,0.0223
1710.00,0.0219
1709.00,0.0215
1708.00,0.0213
1707.00,0.0209
1706.00,0.0205
1705.00,0.0202
1704.00,0.0200
1703.00,0.0198
1702.00,0.0195
1701.00,0.0193
1700.00,0.0191
1699.00,0.0190
1698.00,0.0188
1697.00,0.0189
1696.00,0.0191
1695.00,0.0192
1694.00,0.0193
1693.00,0.0194
1692.00,0.0196
1691.00,0.0197
1690.00,0.0197
1689.00,0.0198
1688.00,0.0200
1687.00,0.0202
1686.00,0.0203
1685.00,0.0206
1684.00,0.0209
1683.00,0.0211
1682.00,0.0213
1681.00,0.0216
1680.00,0.0219
1679.00,0.0222
1678.00,0.0225
1677.00,0.0227
1676.00,0.0231
1675.00,0.0234
1674.00,0.0237
1673.00,0.0240
1672.00,0.0244
1671.00,0.0247
1670.00,0.0250
1669.00,0.0254
1668.00,0.0259
1667.00,0.0263
1666.00,0.0265
1665.00,0.0269
1664.00,0.0273
1663.00,0.0277
1662.00,0.0281
1661.00,0.0284
1660.00,0.0288
1659.00,0.0291
1658.00,0.0293
1657.00,0.0294
1656.00,0.0296
1655.00,0.0298
1654.00,0.0299
1653.00,0.0302
1652.00,0.0305
1651.00,0.0306
1650.00,0.0307
1649.00,0.0308
1648.00,0.0308
1647.00,0.0308
1646.00,0.0307
1645.00,0.0309
1644.00,0.0311
1643.00,0.0312
1642.00,0.0313
1641.00,0.0314
1640.00,0.0316
1639.00,0.0317
1638.00,0.0318
1637.00,0.0320
1636.00,0.0323
1635.00,0.0324
1634.00,0.0325
1633.00,0.0326
1632.00,0.0327
1631.00,0.0328
1630.00,0.0328
1629.00,0.0329
1628.00,0.0331
1627.00,0.0332
1626.00,0.0334
1625.00,0.0339
1624.00,0.0347
1623.00,0.0358
1622.00,0.0371
1621.00,0.0385
1620.00,0.0401
1619.00,0.0421
1618.00,0.0449
1617.00,0.0492
1616.00,0.0539
1615.00,0.0580
1614.00,0.0614
1613.00,0.0647
1612.00,0.0683
1611.00,0.0717
1610.00,0.0746
1609.00,0.0767
1608.00,0.0781
1607.00,0.0783
1606.00,0.0772
1605.00,0.0752
1604.00,0.0725
1603.00,0.0688
1602.00,0.0647
1601.00,0.0606
1600.00,0.0569
1599.00,0.0536
1598.00,0.0508
1597.00,0.0487
1596.00,0.0470
1595.00,0.0458
1594.00,0.0449
1593.00,0.0442
1592.00,0.0439
1591.00,0.0435
1590.00,0.0433
1589.00,0.0434
1588.00,0.0438
1587.00,0.0446
1586.00,0.0456
1585.00,0.0468
1584.00,0.0479
1583.00,0.0485
1582.00,0.0485
1581.00,0.0479
1580.00,0.0469
1579.00,0.0454
1578.00,0.0435
1577.00,0.0409
1576.00,0.0380
1575.00,0.0357
1574.00,0.0342
1573.00,0.0332
1572.00,0.0324
1571.00,0.0315
1570.00,0.0305
1569.00,0.0297
1568.00,0.0293
1567.00,0.0289
1566.00,0.0287
1565.00,0.0285
1564.00,0.0283
1563.00,0.0282
1562.00,0.0280
1561.00,0.0280
1560.00,0.0282
1559.00,0.0280
1558.00,0.0278
1557.00,0.0279
1556.00,0.0281
1555.00,0.0282
1554.00,0.0284
1553.00,0.0287
1552.00,0.0291
1551.00,0.0294
1550.00,0.0297
1549.00,0.0301
1548.00,0.0306
1547.00,0.0309
1546.00,0.0312
1545.00,0.0316
1544.00,0.0323
1543.00,0.0328
1542.00,0.0333
1541.00,0.0343
1540.00,0.0356
1539.00,0.0364
1538.00,0.0369
1537.00,0.0373
1536.00,0.0378
1535.00,0.0383
1534.00,0.0391
1533.00,0.0402
1532.00,0.0413
1531.00,0.0421
1530.00,0.0429
1529.00,0.0441
1528.00,0.0455
1527.00,0.0471
1526.00,0.0489
1525.00,0.0510
1524.00,0.0534
1523.00,0.0565
1522.00,0.0616
1521.00,0.0688
1520.00,0.0760
1519.00,0.0833
1518.00,0.0939
1517.00,0.1096
1516.00,0.1279
1515.00,0.1452
1514.00,0.1618
1513.00,0.1793
1512.00,0.1965
1511.00,0.2106
1510.00,0.2206
1509.00,0.2265
1508.00,0.2257
1507.00,0.2145
1506.00,0.1996
1505.00,0.1881
1504.00,0.1788
1503.00,0.1700
1502.00,0.1617
1501.00,0.1544
1500.00,0.1486
1499.00,0.1444
1498.00,0.1421
1497.00,0.1416
1496.00,0.1419
1495.00,0.1415
1494.00,0.1406
1493.00,0.1396
1492.00,0.1384
1491.00,0.1372
1490.00,0.1367
1489.00,0.1374
1488.00,0.1389
1487.00,0.1404
1486.00,0.1423
1485.00,0.1445
1484.00,0.1470
1483.00,0.1498
1482.00,0.1531
1481.00,0.1568
1480.00,0.1606
1479.00,0.1640
1478.00,0.1675
1477.00,0.1717
1476.00,0.1761
1475.00,0.1802
1474.00,0.1848
1473.00,0.1908
1472.00,0.1972
1471.00,0.2020
1470.00,0.2056
1469.00,0.2090
1468.00,0.2123
1467.00,0.2160
1466.00,0.2205
1465.00,0.2262
1464.00,0.2318
1463.00,0.2362
1462.00,0.2397
1461.00,0.2431
1460.00,0.2465
1459.00,0.2502
1458.00,0.2555
1457.00,0.2626
1456.00,0.2685
1455.00,0.2717
1454.00,0.2740
1453.00,0.2764
1452.00,0.2789
1451.00,0.2809
1450.00,0.2830
1449.00,0.2856
1448.00,0.2884
1447.00,0.2908
1446.00,0.2927
1445.00,0.2945
1444.00,0.2961
1443.00,0.2975
1442.00,0.2988
1441.00,0.3003
1440.00,0.3015
1439.00,0.3024
1438.00,0.3039
1437.00,0.3067
1436.00,0.3098
1435.00,0.3119
1434.00,0.3134
1433.00,0.3151
1432.00,0.3169
1431.00,0.3187
1430.00,0.3207
1429.00,0.3230
1428.00,0.3249
1427.00,0.3261
1426.00,0.3273
1425.00,0.3291
1424.00,0.3309
1423.00,0.3319
1422.00,0.3324
1421.00,0.3331
1420.00,0.3341
1419.00,0.3351
1418.00,0.3358
1417.00,0.3363
1416.00,0.3359
1415.00,0.3348
1414.00,0.3331
1413.00,0.3311
1412.00,0.3281
1411.00,0.3239
1410.00,0.3189
1409.00,0.3135
1408.00,0.3076
1407.00,0.3010
1406.00,0.2941
1405.00,0.2872
1404.00,0.2807
1403.00,0.2749
1402.00,0.2702
1401.00,0.2661
1400.00,0.2619
1399.00,0.2576
1398.00,0.2533
1397.00,0.2490
1396.00,0.2441
1395.00,0.2384
1394.00,0.2329
1393.00,0.2278
1392.00,0.2232
1391.00,0.2188
1390.00,0.2150
1389.00,0.2117
1388.00,0.2092
1387.00,0.2076
1386.00,0.2069
1385.00,0.2065
1384.00,0.2058
1383.00,0.2044
1382.00,0.2022
1381.00,0.1991
1380.00,0.1953
1379.00,0.1911
1378.00,0.1870
1377.00,0.1833
1376.00,0.1797
1375.00,0.1763
1374.00,0.1732
1373.00,0.1706
1372.00,0.1683
1371.00,0.1662
1370.00,0.1644
1369.00,0.1628
1368.00,0.1615
1367.00,0.1607
1366.00,0.1605
1365.00,0.1609
1364.00,0.1619
1363.00,0.1630
1362.00,0.1632
1361.00,0.1616
1360.00,0.1579
1359.00,0.1528
1358.00,0.1471
1357.00,0.1416
1356.00,0.1365
1355.00,0.1322
1354.00,0.1288
1353.00,0.1261
1352.00,0.1237
1351.00,0.1215
1350.00,0.1197
1349.00,0.1181
1348.00,0.1166
1347.00,0.1152
1346.00,0.1139
1345.00,0.1128
1344.00,0.1116
1343.00,0.1105
1342.00,0.1094
1341.00,0.1084
1340.00,0.1073
1339.00,0.1063
1338.00,0.1055
1337.00,0.1047
1336.00,0.1039
1335.00,0.1030
1334.00,0.1022
1333.00,0.1013
1332.00,0.1004
1331.00,0.0995
1330.00,0.0986
1329.00,0.0978
1328.00,0.0970
1327.00,0.0962
1326.00,0.0955
1325.00,0.0949
1324.00,0.0942
1323.00,0.0937
1322.00,0.0934
1321.00,0.0932
1320.00,0.0932
1319.00,0.0935
1318.00,0.0941
1317.00,0.0951
1316.00,0.0964
1315.00,0.0980
1314.00,0.1000
1313.00,0.1021
1312.00,0.1043
1311.00,0.1063
1310.00,0.1082
1309.00,0.1100
1308.00,0.1118
1307.00,0.1137
1306.00,0.1158
1305.00,0.1180
1304.00,0.1202
1303.00,0.1225
1302.00,0.1247
1301.00,0.1267
1300.00,0.1285
1299.00,0.1299
1298.00,0.1311
1297.00,0.1320
1296.00,0.1325
1295.00,0.1326
1294.00,0.1324
1293.00,0.1320
1292.00,0.1312
1291.00,0.1301
1290.00,0.1288
1289.00,0.1271
1288.00,0.1251
1287.00,0.1226
1286.00,0.1200
1285.00,0.1172
1284.00,0.1143
1283.00,0.1115
1282.00,0.1090
1281.00,0.1069
1280.00,0.1052
1279.00,0.1038
1278.00,0.1028
1277.00,0.1021
1276.00,0.1018
1275.00,0.1016
1274.00,0.1018
1273.00,0.1022
1272.00,0.1028
1271.00,0.1037
1270.00,0.1050
1269.00,0.1067
1268.00,0.1087
1267.00,0.1112
1266.00,0.1142
1265.00,0.1179
1264.00,0.1223
1263.00,0.1274
1262.00,0.1335
1261.00,0.1406
1260.00,0.1487
1259.00,0.1577
1258.00,0.1675
1257.00,0.1781
1256.00,0.1891
1255.00,0.2005
1254.00,0.2118
1253.00,0.2229
1252.00,0.2335
1251.00,0.2434
1250.00,0.2524
1249.00,0.2602
1248.00,0.2667
1247.00,0.2717
1246.00,0.2754
1245.00,0.2780
1244.00,0.2795
1243.00,0.2801
1242.00,0.2800
1241.00,0.2795
1240.00,0.2785
1239.00,0.2772
1238.00,0.2756
1237.00,0.2739
1236.00,0.2720
1235.00,0.2697
1234.00,0.2672
1233.00,0.2644
1232.00,0.2614
1231.00,0.2580
1230.00,0.2544
1229.00,0.2506
1228.00,0.2466
1227.00,0.2424
1226.00,0.2380
1225.00,0.2336
1224.00,0.2292
1223.00,0.2248
1222.00,0.2205
1221.00,0.2162
1220.00,0.2121
1219.00,0.2080
1218.00,0.2040
1217.00,0.2000
1216.00,0.1961
1215.00,0.1922
1214.00,0.1884
1213.00,0.1845
1212.00,0.1807
1211.00,0.1770
1210.00,0.1734
1209.00,0.1701
1208.00,0.1671
1207.00,0.1644
1206.00,0.1623
1205.00,0.1607
1204.00,0.1598
1203.00,0.1594
1202.00,0.1597
1201.00,0.1607
1200.00,0.1622
1199.00,0.1644
1198.00,0.1671
1197.00,0.1704
1196.00,0.1741
1195.00,0.1784
1194.00,0.1834
1193.00,0.1892
1192.00,0.1960
1191.00,0.2036
1190.00,0.2123
1189.00,0.2220
1188.00,0.2326
1187.00,0.2438
1186.00,0.2556
1185.00,0.2676
1184.00,0.2793
1183.00,0.2900
1182.00,0.2989
1181.00,0.3055
1180.00,0.3092
1179.00,0.3099
1178.00,0.3080
1177.00,0.3044
1176.00,0.2998
1175.00,0.2950
1174.00,0.2904
1173.00,0.2863
1172.00,0.2829
1171.00,0.2800
1170.00,0.2776
1169.00,0.2756
1168.00,0.2739
1167.00,0.2722
1166.00,0.2706
1165.00,0.2689
1164.00,0.2670
1163.00,0.2645
1162.00,0.2613
1161.00,0.2576
1160.00,0.2537
1159.00,0.2503
1158.00,0.2479
1157.00,0.2469
1156.00,0.2473
1155.00,0.2487
1154.00,0.2507
1153.00,0.2532
1152.00,0.2557
1151.00,0.2580
1150.00,0.2602
1149.00,0.2622
1148.00,0.2639
1147.00,0.2653
1146.00,0.2664
1145.00,0.2674
1144.00,0.2681
1143.00,0.2687
1142.00,0.2692
1141.00,0.2698
1140.00,0.2704
1139.00,0.2711
1138.00,0.2720
1137.00,0.2732
1136.00,0.2745
1135.00,0.2760
1134.00,0.2776
1133.00,0.2796
1132.00,0.2818
1131.00,0.2843
1130.00,0.2871
1129.00,0.2904
1128.00,0.2941
1127.00,0.2984
1126.00,0.3033
1125.00,0.3089
1124.00,0.3148
1123.00,0.3208
1122.00,0.3265
1121.00,0.3317
1120.00,0.3363
1119.00,0.3402
1118.00,0.3438
1117.00,0.3472
1116.00,0.3508
1115.00,0.3544
1114.00,0.3583
1113.00,0.3625
1112.00,0.3672
1111.00,0.3720
1110.00,0.3772
1109.00,0.3828
1108.00,0.3887
1107.00,0.3947
1106.00,0.4008
1105.00,0.4069
1104.00,0.4131
1103.00,0.4190
1102.00,0.4248
1101.00,0.4308
1100.00,0.4369
1099.00,0.4430
1098.00,0.4493
1097.00,0.4558
1096.00,0.4627
1095.00,0.4697
1094.00,0.4769
1093.00,0.4844
1092.00,0.4925
1091.00,0.5006
1090.00,0.5091
1089.00,0.5182
1088.00,0.5279
1087.00,0.5377
1086.00,0.5476
1085.00,0.5577
1084.00,0.5676
1083.00,0.5767
1082.00,0.5850
1081.00,0.5930
1080.00,0.6006
1079.00,0.6074
1078.00,0.6134
1077.00,0.6188
1076.00,0.6233
1075.00,0.6263
1074.00,0.6277
1073.00,0.6280
1072.00,0.6271
1071.00,0.6246
1070.00,0.6209
1069.00,0.6166
1068.00,0.6117
1067.00,0.6058
1066.00,0.5992
1065.00,0.5922
1064.00,0.5848
1063.00,0.5765
1062.00,0.5675
1061.00,0.5582
1060.00,0.5487
1059.00,0.5388
1058.00,0.5289
1057.00,0.5197
1056.00,0.5115
1055.00,0.5042
1054.00,0.4980
1053.00,0.4931
1052.00,0.4892
1051.00,0.4859
1050.00,0.4831
1049.00,0.4810
1048.00,0.4798
1047.00,0.4793
1046.00,0.4798
1045.00,0.4814
1044.00,0.4841
1043.00,0.4873
1042.00,0.4909
1041.00,0.4945
1040.00,0.4977
1039.00,0.5000
1038.00,0.5011
1037.00,0.5014
1036.00,0.5008
1035.00,0.4991
1034.00,0.4964
1033.00,0.4932
1032.00,0.4893
1031.00,0.4848
1030.00,0.4797
1029.00,0.4745
1028.00,0.4689
1027.00,0.4630
1026.00,0.4567
1025.00,0.4504
1024.00,0.4441
1023.00,0.4374
1022.00,0.4305
1021.00,0.4237
1020.00,0.4171
1019.00,0.4109
1018.00,0.4052
1017.00,0.4006
1016.00,0.3969
1015.00,0.3943
1014.00,0.3926
1013.00,0.3916
1012.00,0.3903
1011.00,0.3870
1010.00,0.3806
1009.00,0.3712
1008.00,0.3598
1007.00,0.3480
1006.00,0.3373
1005.00,0.3279
1004.00,0.3196
1003.00,0.3121
1002.00,0.3052
1001.00,0.2988
1000.00,0.2928
999.00,0.2870
998.00,0.2816
997.00,0.2765
996.00,0.2717
995.00,0.2671
994.00,0.2627
993.00,0.2586
992.00,0.2548
991.00,0.2510
990.00,0.2475
989.00,0.2441
988.00,0.2408
987.00,0.2376
986.00,0.2345
985.00,0.2316
984.00,0.2287
983.00,0.2260
982.00,0.2233
981.00,0.2207
980.00,0.2182
979.00,0.2158
978.00,0.2136
977.00,0.2114
976.00,0.2094
975.00,0.2075
974.00,0.2057
973.00,0.2042
972.00,0.2028
971.00,0.2015
970.00,0.2003
969.00,0.1992
968.00,0.1982
967.00,0.1972
966.00,0.1961
965.00,0.1951
964.00,0.1941
963.00,0.1931
962.00,0.1921
961.00,0.1913
960.00,0.1904
959.00,0.1896
958.00,0.1888
957.00,0.1880
956.00,0.1871
955.00,0.1862
954.00,0.1853
953.00,0.1844
952.00,0.1834
951.00,0.1823
950.00,0.1813
949.00,0.1803
948.00,0.1794
947.00,0.1785
946.00,0.1777
945.00,0.1770
944.00,0.1764
943.00,0.1759
942.00,0.1754
941.00,0.1750
940.00,0.1746
939.00,0.1742
938.00,0.1738
937.00,0.1734
936.00,0.1729
935.00,0.1722
934.00,0.1715
933.00,0.1706
932.00,0.1695
931.00,0.1683
930.00,0.1670
929.00,0.1655
928.00,0.1639
927.00,0.1621
926.00,0.1604
925.00,0.1586
924.00,0.1568
923.00,0.1550
922.00,0.1533
921.00,0.1516
920.00,0.1500
919.00,0.1483
918.00,0.1466
917.00,0.1448
916.00,0.1429
915.00,0.1409
914.00,0.1387
913.00,0.1363
912.00,0.1338
911.00,0.1312
910.00,0.1285
909.00,0.1259
908.00,0.1235
907.00,0.1211
906.00,0.1189
905.00,0.1169
904.00,0.1148
903.00,0.1129
902.00,0.1111
901.00,0.1093
900.00,0.1077
899.00,0.1062
898.00,0.1048
897.00,0.1035
896.00,0.1022
895.00,0.1009
894.00,0.0997
893.00,0.0985
892.00,0.0974
891.00,0.0964
890.00,0.0959
889.00,0.0964
888.00,0.0987
887.00,0.1041
886.00,0.1130
885.00,0.1247
884.00,0.1378
883.00,0.1510
882.00,0.1646
881.00,0.1804
880.00,0.2006
879.00,0.2262
878.00,0.2560
877.00,0.2868
876.00,0.3142
875.00,0.3338
874.00,0.3428
873.00,0.3400
872.00,0.3263
871.00,0.3049
870.00,0.2803
869.00,0.2568
868.00,0.2365
867.00,0.2201
866.00,0.2070
865.00,0.1965
864.00,0.1877
863.00,0.1803
862.00,0.1738
861.00,0.1680
860.00,0.1629
859.00,0.1582
858.00,0.1541
857.00,0.1505
856.00,0.1472
855.00,0.1444
854.00,0.1421
853.00,0.1403
852.00,0.1393
851.00,0.1396
850.00,0.1417
849.00,0.1450
848.00,0.1486
847.00,0.1515
846.00,0.1537
845.00,0.1560
844.00,0.1590
843.00,0.1631
842.00,0.1681
841.00,0.1740
840.00,0.1808
839.00,0.1888
838.00,0.1979
837.00,0.2084
836.00,0.2203
835.00,0.2336
834.00,0.2482
833.00,0.2639
832.00,0.2804
831.00,0.2970
830.00,0.3128
829.00,0.3267
828.00,0.3372
827.00,0.3424
826.00,0.3408
825.00,0.3322
824.00,0.3172
823.00,0.2979
822.00,0.2770
821.00,0.2567
820.00,0.2385
819.00,0.2229
818.00,0.2101
817.00,0.2000
816.00,0.1924
815.00,0.1870
814.00,0.1839
813.00,0.1828
812.00,0.1839
811.00,0.1869
810.00,0.1921
809.00,0.1995
808.00,0.2092
807.00,0.2210
806.00,0.2346
805.00,0.2496
804.00,0.2654
803.00,0.2812
802.00,0.2963
801.00,0.3102
800.00,0.3222
799.00,0.3312
798.00,0.3362
797.00,0.3366
796.00,0.3321
795.00,0.3235
794.00,0.3121
793.00,0.2995
792.00,0.2869
791.00,0.2751
790.00,0.2647
789.00,0.2562
788.00,0.2499
787.00,0.2461
786.00,0.2451
785.00,0.2472
784.00,0.2523
783.00,0.2602
782.00,0.2703
781.00,0.2813
780.00,0.2917
779.00,0.2994
778.00,0.3032
777.00,0.3023
776.00,0.2972
775.00,0.2891
774.00,0.2797
773.00,0.2701
772.00,0.2612
771.00,0.2532
770.00,0.2462
769.00,0.2400
768.00,0.2344
767.00,0.2290
766.00,0.2240
765.00,0.2193
764.00,0.2150
763.00,0.2113
762.00,0.2084
761.00,0.2064
760.00,0.2055
759.00,0.2057
758.00,0.2070
757.00,0.2094
756.00,0.2126
755.00,0.2163
754.00,0.2201
753.00,0.2236
752.00,0.2264
751.00,0.2280
750.00,0.2279
749.00,0.2260
748.00,0.2220
747.00,0.2162
746.00,0.2092
745.00,0.2016
744.00,0.1939
743.00,0.1867
742.00,0.1807
741.00,0.1761
740.00,0.1730
739.00,0.1713
738.00,0.1704
737.00,0.1694
736.00,0.1677
735.00,0.1651
734.00,0.1620
733.00,0.1590
732.00,0.1566
731.00,0.1552
730.00,0.1546
729.00,0.1543
728.00,0.1536
727.00,0.1521
726.00,0.1498
725.00,0.1467
724.00,0.1432
723.00,0.1399
722.00,0.1369
721.00,0.1346
720.00,0.1334
719.00,0.1342
718.00,0.1381
717.00,0.1463
716.00,0.1601
715.00,0.1794
714.00,0.2011
713.00,0.2188
712.00,0.2263
711.00,0.2215
710.00,0.2086
709.00,0.1936
708.00,0.1805
707.00,0.1707
706.00,0.1639
705.00,0.1593
704.00,0.1565
703.00,0.1550
702.00,0.1552
701.00,0.1573
700.00,0.1616
699.00,0.1681
698.00,0.1759
697.00,0.1837
696.00,0.1897
695.00,0.1925
694.00,0.1917
693.00,0.1880
692.00,0.1825
691.00,0.1764
690.00,0.1706
689.00,0.1653
688.00,0.1608
687.00,0.1569
686.00,0.1537
685.00,0.1510
684.00,0.1485
683.00,0.1462
682.00,0.1441
681.00,0.1424
680.00,0.1410
679.00,0.1398
678.00,0.1388
677.00,0.1379
676.00,0.1371
675.00,0.1365
674.00,0.1359
673.00,0.1354
672.00,0.1348
671.00,0.1341
670.00,0.1334
669.00,0.1327
668.00,0.1320
667.00,0.1312
666.00,0.1303
665.00,0.1295
664.00,0.1287
663.00,0.1279
662.00,0.1273
661.00,0.1268
660.00,0.1262
659.00,0.1256
658.00,0.1250
657.00,0.1246
656.00,0.1242
655.00,0.1239
654.00,0.1236
653.00,0.1233
652.00,0.1228
651.00,0.1222
650.00,0.1218
649.00,0.1215
648.00,0.1212
647.00,0.1210
646.00,0.1208
645.00,0.1208
644.00,0.1210
643.00,0.1214
642.00,0.1221
641.00,0.1230
640.00,0.1236
639.00,0.1237
638.00,0.1231
637.00,0.1219
636.00,0.1203
635.00,0.1189
634.00,0.1179
633.00,0.1173
632.00,0.1170
631.00,0.1167
630.00,0.1166
629.00,0.1166
628.00,0.1165
627.00,0.1162
626.00,0.1160
625.00,0.1158
624.00,0.1155
623.00,0.1153
622.00,0.1153
621.00,0.1153
620.00,0.1152
619.00,0.1150
618.00,0.1151
617.00,0.1153
616.00,0.1154
615.00,0.1155
614.00,0.1156
613.00,0.1158
612.00,0.1159
611.00,0.1160
610.00,0.1163
609.00,0.1166
608.00,0.1167
607.00,0.1168
606.00,0.1172
605.00,0.1179
604.00,0.1186
603.00,0.1190
602.00,0.1192
601.00,0.1195
600.00,0.1198
